SpectraSuite数据文件
++++++++++++++++++++++++++++++++++++
数据: Mon Jan 14 19:36:40 CST 2019
用户: 56283
暗光谱: 否
参考光谱: 否
光谱数量: 1
光谱仪: USB2+U18164
积分时间（微秒）: 100000 (USB2+U18164)
平均次数: 1 (USB2+U18164)
平滑度: 0 (USB2+U18164)
去除暗噪声: 否 (USB2+U18164)
使用脉冲信号/灯: 否 (USB2+U18164)
电子暗噪声校正: 否 (USB2+U18164)
杂散光校正: 否 (USB2+U18164)
光谱像素值: 2048
>>>>>Begin Processed Spectral Data<<<<<
340.59	313.63
340.96	313.63
341.34	313.63
341.71	215.33
342.08	241.08
342.46	294.91
342.83	252.78
343.21	205.97
343.58	266.82
343.95	245.76
344.33	245.76
344.70	271.50
345.08	269.16
345.45	290.23
345.82	376.83
346.20	372.15
346.57	374.49
346.95	386.19
347.32	435.34
347.69	465.77
348.07	484.49
348.44	428.32
348.81	458.74
349.19	456.40
349.56	505.56
349.93	512.58
350.31	468.11
350.68	585.13
351.06	514.92
351.43	589.82
351.80	599.18
352.18	627.26
352.55	624.92
352.92	620.24
353.29	678.76
353.67	608.54
354.04	636.63
354.41	655.35
354.79	624.92
355.16	620.24
355.53	601.52
355.91	660.03
356.28	657.69
356.65	692.80
357.03	678.76
357.40	671.73
357.77	671.73
358.14	657.69
358.52	627.26
358.89	638.97
359.26	671.73
359.63	571.09
360.01	744.29
360.38	634.29
360.75	664.71
361.13	669.39
361.50	624.92
361.87	599.18
362.24	606.20
362.61	627.26
362.99	585.13
363.36	660.03
363.73	552.37
364.10	606.20
364.48	655.35
364.85	655.35
365.22	606.20
365.59	629.60
365.97	601.52
366.34	638.97
366.71	624.92
367.08	596.84
367.45	578.11
367.83	582.79
368.20	613.22
368.57	645.99
368.94	606.20
369.31	629.60
369.68	622.58
370.06	547.69
370.43	589.82
370.80	517.26
371.17	557.05
371.54	599.18
371.91	615.56
372.29	571.09
372.66	606.20
373.03	601.52
373.40	596.84
373.77	622.58
374.14	580.45
374.52	564.07
374.89	627.26
375.26	674.07
375.63	615.56
376.00	594.50
376.37	568.75
376.74	566.41
377.11	601.52
377.49	671.73
377.86	592.16
378.23	648.33
378.60	643.65
378.97	655.35
379.34	643.65
379.71	624.92
380.08	636.63
380.45	669.39
380.82	678.76
381.19	610.88
381.57	589.82
381.94	613.22
382.31	547.69
382.68	655.35
383.05	634.29
383.42	692.80
383.79	660.03
384.16	629.60
384.53	594.50
384.90	638.97
385.27	650.67
385.64	645.99
386.01	587.47
386.38	674.07
386.75	587.47
387.12	627.26
387.49	603.86
387.86	585.13
388.23	627.26
388.60	648.33
388.97	585.13
389.34	667.05
389.71	643.65
390.08	559.39
390.45	645.99
390.82	638.97
391.19	695.14
391.56	636.63
391.93	622.58
392.30	664.71
392.67	636.63
393.04	596.84
393.41	617.90
393.78	655.35
394.15	566.41
394.52	643.65
394.89	648.33
395.26	601.52
395.63	638.97
396.00	667.05
396.37	629.60
396.74	627.26
397.11	655.35
397.48	615.56
397.85	615.56
398.22	620.24
398.58	615.56
398.95	606.20
399.32	599.18
399.69	610.88
400.06	624.92
400.43	669.39
400.80	622.58
401.17	620.24
401.54	601.52
401.91	528.96
402.28	603.86
402.64	648.33
403.01	606.20
403.38	645.99
403.75	559.39
404.12	627.26
404.49	667.05
404.86	664.71
405.23	592.16
405.59	638.97
405.96	629.60
406.33	585.13
406.70	622.58
407.07	564.07
407.44	638.97
407.80	638.97
408.17	681.10
408.54	643.65
408.91	629.60
409.28	585.13
409.65	648.33
410.01	580.45
410.38	660.03
410.75	613.22
411.12	620.24
411.49	599.18
411.85	622.58
412.22	725.57
412.59	592.16
412.96	634.29
413.33	580.45
413.69	627.26
414.06	613.22
414.43	601.52
414.80	629.60
415.17	622.58
415.53	678.76
415.90	629.60
416.27	608.54
416.64	634.29
417.00	610.88
417.37	641.31
417.74	599.18
418.11	610.88
418.47	681.10
418.84	613.22
419.21	648.33
419.58	655.35
419.94	620.24
420.31	720.88
420.68	627.26
421.04	645.99
421.41	622.58
421.78	533.64
422.15	564.07
422.51	568.75
422.88	645.99
423.25	587.47
423.61	643.65
423.98	606.20
424.35	617.90
424.71	638.97
425.08	613.22
425.45	554.71
425.81	610.88
426.18	596.84
426.55	627.26
426.91	578.11
427.28	580.45
427.65	596.84
428.01	617.90
428.38	662.37
428.75	599.18
429.11	622.58
429.48	695.14
429.85	662.37
430.21	587.47
430.58	566.41
430.95	669.39
431.31	589.82
431.68	564.07
432.04	653.01
432.41	610.88
432.78	660.03
433.14	629.60
433.51	655.35
433.87	568.75
434.24	653.01
434.61	636.63
434.97	650.67
435.34	653.01
435.70	667.05
436.07	676.41
436.44	706.84
436.80	634.29
437.17	627.26
437.53	695.14
437.90	648.33
438.26	638.97
438.63	638.97
438.99	624.92
439.36	550.03
439.73	606.20
440.09	681.10
440.46	629.60
440.82	596.84
441.19	674.07
441.55	606.20
441.92	643.65
442.28	608.54
442.65	681.10
443.01	664.71
443.38	575.77
443.74	655.35
444.11	603.86
444.47	650.67
444.84	599.18
445.20	662.37
445.57	660.03
445.93	650.67
446.30	627.26
446.66	660.03
447.03	564.07
447.39	699.82
447.76	650.67
448.12	676.41
448.49	610.88
448.85	585.13
449.21	636.63
449.58	547.69
449.94	631.94
450.31	638.97
450.67	624.92
451.04	709.18
451.40	638.97
451.76	655.35
452.13	631.94
452.49	610.88
452.86	641.31
453.22	681.10
453.59	636.63
453.95	589.82
454.31	599.18
454.68	582.79
455.04	627.26
455.41	634.29
455.77	688.12
456.13	615.56
456.50	657.69
456.86	638.97
457.22	655.35
457.59	592.16
457.95	638.97
458.32	667.05
458.68	660.03
459.04	603.86
459.41	592.16
459.77	711.52
460.13	671.73
460.50	683.44
460.86	653.01
461.22	730.25
461.59	645.99
461.95	650.67
462.31	706.84
462.68	674.07
463.04	709.18
463.40	631.94
463.77	706.84
464.13	660.03
464.49	655.35
464.86	683.44
465.22	655.35
465.58	667.05
465.94	667.05
466.31	667.05
466.67	638.97
467.03	683.44
467.40	671.73
467.76	748.97
468.12	716.20
468.48	678.76
468.85	697.48
469.21	660.03
469.57	667.05
469.93	692.80
470.30	709.18
470.66	671.73
471.02	660.03
471.38	720.88
471.75	713.86
472.11	739.61
472.47	723.23
472.83	669.39
473.19	674.07
473.56	706.84
473.92	681.10
474.28	702.16
474.64	681.10
475.00	704.50
475.37	683.44
475.73	739.61
476.09	711.52
476.45	713.86
476.81	767.70
477.18	704.50
477.54	645.99
477.90	706.84
478.26	678.76
478.62	732.59
478.98	676.41
479.35	746.63
479.71	678.76
480.07	690.46
480.43	669.39
480.79	744.29
481.15	695.14
481.51	664.71
481.88	755.99
482.24	716.20
482.60	739.61
482.96	800.46
483.32	868.34
483.68	816.85
484.04	847.27
484.40	847.27
484.77	870.68
485.13	915.15
485.49	957.28
485.85	1006.43
486.21	1062.60
486.57	1064.94
486.93	1029.84
487.29	1097.71
487.65	1048.56
488.01	1020.47
488.37	1050.90
488.73	1043.88
489.09	1071.97
489.46	1055.58
489.82	1074.31
490.18	940.90
490.54	985.37
490.90	1039.20
491.26	987.71
491.62	994.73
491.98	999.41
492.34	954.94
492.70	936.21
493.06	929.19
493.42	844.93
493.78	891.74
494.14	945.58
494.50	940.90
494.86	835.57
495.22	915.15
495.58	912.81
495.94	905.79
496.30	887.06
496.66	809.83
497.02	847.27
497.38	842.59
497.74	826.21
498.10	793.44
498.46	774.72
498.82	765.36
499.18	833.23
499.54	802.80
499.90	699.82
500.26	800.46
500.61	713.86
500.97	772.38
501.33	704.50
501.69	760.67
502.05	709.18
502.41	772.38
502.77	716.20
503.13	748.97
503.49	718.54
503.85	800.46
504.21	697.48
504.57	716.20
504.92	704.50
505.28	685.78
505.64	664.71
506.00	695.14
506.36	741.95
506.72	730.25
507.08	702.16
507.44	709.18
507.80	739.61
508.15	758.33
508.51	667.05
508.87	685.78
509.23	711.52
509.59	678.76
509.95	683.44
510.31	695.14
510.66	706.84
511.02	723.23
511.38	704.50
511.74	676.41
512.10	695.14
512.45	683.44
512.81	681.10
513.17	671.73
513.53	741.95
513.89	697.48
514.25	732.59
514.60	716.20
514.96	781.74
515.32	720.88
515.68	748.97
516.04	704.50
516.39	748.97
516.75	720.88
517.11	709.18
517.47	657.69
517.82	706.84
518.18	683.44
518.54	653.01
518.90	746.63
519.25	702.16
519.61	732.59
519.97	739.61
520.33	713.86
520.68	638.97
521.04	681.10
521.40	706.84
521.76	704.50
522.11	678.76
522.47	1088.35
522.83	650.67
523.18	699.82
523.54	704.50
523.90	699.82
524.25	779.40
524.61	709.18
524.97	657.69
525.33	737.27
525.68	702.16
526.04	636.63
526.40	648.33
526.75	704.50
527.11	660.03
527.47	688.12
527.82	662.37
528.18	685.78
528.54	671.73
528.89	622.58
529.25	718.54
529.61	702.16
529.96	674.07
530.32	671.73
530.67	723.23
531.03	702.16
531.39	725.57
531.74	699.82
532.10	671.73
532.46	748.97
532.81	711.52
533.17	662.37
533.52	770.04
533.88	765.36
534.24	741.95
534.59	786.42
534.95	791.10
535.30	730.25
535.66	716.20
536.01	791.10
536.37	809.83
536.73	844.93
537.08	842.59
537.44	943.24
537.79	940.90
538.15	1053.24
538.50	1057.92
538.86	1116.44
539.21	1163.25
539.57	1313.04
539.92	1432.41
540.28	1657.10
540.64	1961.37
540.99	2207.13
541.35	2452.88
541.70	2888.22
542.06	3021.63
542.41	3262.71
542.77	3136.32
543.12	3201.85
543.48	3112.91
543.83	3129.30
544.19	3108.23
544.54	3218.24
544.90	3206.53
545.25	3269.73
545.60	3400.80
545.96	3861.88
546.31	4016.36
546.67	3691.02
547.02	3241.64
547.38	2602.68
547.73	2377.98
548.09	2225.85
548.44	2080.74
548.80	1944.99
549.15	1818.60
549.50	1657.10
549.86	1629.01
550.21	1542.41
550.57	1460.49
550.92	1392.62
551.27	1357.51
551.63	1270.91
551.98	1207.72
552.34	1231.12
552.69	1167.93
553.04	1062.60
553.40	1081.33
553.75	926.85
554.11	1001.75
554.46	926.85
554.81	882.38
555.17	861.32
555.52	828.55
555.87	828.55
556.23	770.04
556.58	772.38
556.93	713.86
557.29	802.80
557.64	760.67
558.00	723.23
558.35	746.63
558.70	814.51
559.05	781.74
559.41	809.83
559.76	706.84
560.11	746.63
560.47	791.10
560.82	741.95
561.17	744.29
561.53	669.39
561.88	760.67
562.23	681.10
562.59	676.41
562.94	737.27
563.29	723.23
563.64	765.36
564.00	688.12
564.35	739.61
564.70	697.48
565.05	695.14
565.41	594.50
565.76	627.26
566.11	695.14
566.46	650.67
566.82	688.12
567.17	695.14
567.52	655.35
567.87	667.05
568.23	674.07
568.58	739.61
568.93	723.23
569.28	657.69
569.63	660.03
569.99	706.84
570.34	741.95
570.69	709.18
571.04	688.12
571.39	622.58
571.75	655.35
572.10	692.80
572.45	732.59
572.80	720.88
573.15	702.16
573.50	706.84
573.86	690.46
574.21	730.25
574.56	713.86
574.91	737.27
575.26	727.91
575.61	781.74
575.96	730.25
576.32	809.83
576.67	856.64
577.02	971.32
577.37	1090.69
577.72	992.39
578.07	968.98
578.42	919.83
578.77	968.98
579.13	1111.75
579.48	1121.12
579.83	1090.69
580.18	1088.35
580.53	1053.24
580.88	1128.14
581.23	1139.84
581.58	997.07
581.93	1041.54
582.28	1109.41
582.63	1139.84
582.98	1130.48
583.33	1238.14
583.69	1205.38
584.04	1233.46
584.39	1233.46
584.74	1277.93
585.09	1188.99
585.44	1198.35
585.79	1123.46
586.14	1247.51
586.49	1193.67
586.84	1273.25
587.19	1303.68
587.54	1420.71
587.89	1331.76
588.24	1270.91
588.59	1179.63
588.94	1128.14
589.29	1123.46
589.64	1095.37
589.99	1046.22
590.34	985.37
590.69	994.73
591.04	1034.52
591.39	985.37
591.74	1046.22
592.09	1036.86
592.43	1011.11
592.78	1151.54
593.13	1196.01
593.48	1249.85
593.83	1057.92
594.18	1062.60
594.53	1060.26
594.88	1022.81
595.23	973.66
595.58	919.83
595.93	842.59
596.28	903.45
596.63	858.98
596.98	816.85
597.32	828.55
597.67	781.74
598.02	861.32
598.37	880.04
598.72	898.77
599.07	926.85
599.42	1018.13
599.77	1048.56
600.11	968.98
600.46	922.17
600.81	959.62
601.16	957.28
601.51	851.96
601.86	901.11
602.21	809.83
602.55	772.38
602.90	800.46
603.25	823.87
603.60	772.38
603.95	751.31
604.29	751.31
604.64	784.08
604.99	842.59
605.34	770.04
605.69	779.40
606.03	837.91
606.38	884.72
606.73	837.91
607.08	880.04
607.43	877.70
607.77	882.38
608.12	968.98
608.47	1041.54
608.82	1109.41
609.16	1256.87
609.51	1610.29
609.86	1804.55
610.21	2324.15
610.55	2918.65
610.90	3852.52
611.25	4596.81
611.60	5076.62
611.94	4975.98
612.29	4573.41
612.64	3840.82
612.99	3262.71
613.33	2843.75
613.68	2656.51
614.03	2441.18
614.37	2296.07
614.72	2073.71
615.07	2047.97
615.41	1816.26
615.76	1687.53
616.11	1516.67
616.45	1390.28
616.80	1259.21
617.15	1242.82
617.49	1149.20
617.84	1153.88
618.19	1064.94
618.53	1048.56
618.88	1013.45
619.23	1055.58
619.57	1132.82
619.92	1118.78
620.27	1078.99
620.61	1144.52
620.96	1156.22
621.30	1121.12
621.65	1057.92
622.00	1078.99
622.34	1088.35
622.69	1090.69
623.04	1125.80
623.38	1130.48
623.73	1060.26
624.07	1025.15
624.42	1109.41
624.76	1036.86
625.11	1053.24
625.46	1078.99
625.80	1081.33
626.15	1130.48
626.49	1057.92
626.84	1015.79
627.18	1055.58
627.53	1057.92
627.87	1011.11
628.22	1055.58
628.56	1018.13
628.91	994.73
629.26	1060.26
629.60	1001.75
629.95	1090.69
630.29	1078.99
630.64	1210.06
630.98	1200.69
631.33	1315.38
631.67	1181.97
632.02	1130.48
632.36	1076.65
632.71	957.28
633.05	861.32
633.39	816.85
633.74	777.06
634.08	739.61
634.43	732.59
634.77	758.33
635.12	732.59
635.46	695.14
635.81	767.70
636.15	688.12
636.50	732.59
636.84	739.61
637.18	744.29
637.53	730.25
637.87	692.80
638.22	725.57
638.56	730.25
638.91	650.67
639.25	713.86
639.59	697.48
639.94	657.69
640.28	655.35
640.62	725.57
640.97	631.94
641.31	723.23
641.66	681.10
642.00	697.48
642.34	683.44
642.69	753.65
643.03	650.67
643.37	770.04
643.72	720.88
644.06	678.76
644.40	699.82
644.75	690.46
645.09	697.48
645.43	692.80
645.78	716.20
646.12	723.23
646.46	711.52
646.81	688.12
647.15	678.76
647.49	681.10
647.84	713.86
648.18	702.16
648.52	695.14
648.87	716.20
649.21	739.61
649.55	784.08
649.89	662.37
650.24	821.53
650.58	746.63
650.92	800.46
651.26	812.17
651.61	770.04
651.95	828.55
652.29	767.70
652.63	734.93
652.98	800.46
653.32	739.61
653.66	793.44
654.00	713.86
654.35	739.61
654.69	692.80
655.03	713.86
655.37	650.67
655.71	655.35
656.06	624.92
656.40	725.57
656.74	713.86
657.08	702.16
657.42	643.65
657.76	620.24
658.11	713.86
658.45	699.82
658.79	681.10
659.13	727.91
659.47	725.57
659.81	711.52
660.16	638.97
660.50	692.80
660.84	638.97
661.18	781.74
661.52	730.25
661.86	706.84
662.20	727.91
662.55	734.93
662.89	688.12
663.23	786.42
663.57	770.04
663.91	711.52
664.25	676.41
664.59	671.73
664.93	685.78
665.27	702.16
665.61	716.20
665.95	704.50
666.30	648.33
666.64	704.50
666.98	695.14
667.32	704.50
667.66	734.93
668.00	660.03
668.34	664.71
668.68	704.50
669.02	704.50
669.36	695.14
669.70	690.46
670.04	697.48
670.38	657.69
670.72	669.39
671.06	751.31
671.40	692.80
671.74	695.14
672.08	704.50
672.42	660.03
672.76	664.71
673.10	730.25
673.44	669.39
673.78	692.80
674.12	620.24
674.46	631.94
674.80	653.01
675.14	669.39
675.48	655.35
675.82	664.71
676.16	634.29
676.50	699.82
676.84	655.35
677.18	645.99
677.52	655.35
677.85	580.45
678.19	706.84
678.53	681.10
678.87	617.90
679.21	650.67
679.55	650.67
679.89	716.20
680.23	706.84
680.57	704.50
680.91	641.31
681.25	674.07
681.58	662.37
681.92	638.97
682.26	697.48
682.60	676.41
682.94	641.31
683.28	620.24
683.62	678.76
683.95	709.18
684.29	669.39
684.63	648.33
684.97	655.35
685.31	723.23
685.65	667.05
685.98	758.33
686.32	734.93
686.66	650.67
687.00	671.73
687.34	704.50
687.68	709.18
688.01	727.91
688.35	711.52
688.69	744.29
689.03	718.54
689.36	704.50
689.70	695.14
690.04	645.99
690.38	645.99
690.72	660.03
691.05	636.63
691.39	671.73
691.73	671.73
692.07	664.71
692.40	638.97
692.74	650.67
693.08	657.69
693.42	681.10
693.75	702.16
694.09	650.67
694.43	587.47
694.76	676.41
695.10	713.86
695.44	634.29
695.77	669.39
696.11	720.88
696.45	631.94
696.79	674.07
697.12	650.67
697.46	657.69
697.80	662.37
698.13	627.26
698.47	657.69
698.81	624.92
699.14	692.80
699.48	671.73
699.82	603.86
700.15	634.29
700.49	688.12
700.82	627.26
701.16	655.35
701.50	699.82
701.83	681.10
702.17	657.69
702.51	683.44
702.84	634.29
703.18	594.50
703.51	610.88
703.85	723.23
704.19	681.10
704.52	678.76
704.86	669.39
705.19	662.37
705.53	688.12
705.86	697.48
706.20	751.31
706.54	739.61
706.87	774.72
707.21	821.53
707.54	748.97
707.88	833.23
708.21	830.89
708.55	807.48
708.88	774.72
709.22	798.12
709.55	856.64
709.89	779.40
710.22	784.08
710.56	737.27
710.89	709.18
711.23	699.82
711.56	676.41
711.90	781.74
712.23	767.70
712.57	807.48
712.90	781.74
713.24	777.06
713.57	685.78
713.91	713.86
714.24	664.71
714.58	763.01
714.91	704.50
715.25	622.58
715.58	606.20
715.91	655.35
716.25	667.05
716.58	690.46
716.92	624.92
717.25	676.41
717.59	594.50
717.92	617.90
718.25	667.05
718.59	622.58
718.92	653.01
719.26	655.35
719.59	631.94
719.92	610.88
720.26	681.10
720.59	559.39
720.92	601.52
721.26	599.18
721.59	573.43
721.93	655.35
722.26	683.44
722.59	603.86
722.93	634.29
723.26	648.33
723.59	648.33
723.93	617.90
724.26	669.39
724.59	634.29
724.93	575.77
725.26	662.37
725.59	711.52
725.92	599.18
726.26	641.31
726.59	669.39
726.92	610.88
727.26	634.29
727.59	564.07
727.92	645.99
728.25	648.33
728.59	653.01
728.92	638.97
729.25	634.29
729.59	617.90
729.92	608.54
730.25	706.84
730.58	634.29
730.91	650.67
731.25	704.50
731.58	624.92
731.91	648.33
732.24	699.82
732.58	606.20
732.91	674.07
733.24	681.10
733.57	650.67
733.90	669.39
734.24	702.16
734.57	681.10
734.90	627.26
735.23	627.26
735.56	660.03
735.89	716.20
736.23	706.84
736.56	697.48
736.89	676.41
737.22	718.54
737.55	669.39
737.88	641.31
738.22	603.86
738.55	620.24
738.88	648.33
739.21	681.10
739.54	631.94
739.87	599.18
740.20	606.20
740.53	638.97
740.86	699.82
741.20	606.20
741.53	634.29
741.86	685.78
742.19	688.12
742.52	697.48
742.85	622.58
743.18	784.08
743.51	613.22
743.84	657.69
744.17	601.52
744.50	685.78
744.83	575.77
745.16	697.48
745.49	660.03
745.82	603.86
746.16	669.39
746.49	594.50
746.82	631.94
747.15	610.88
747.48	667.05
747.81	657.69
748.14	660.03
748.47	634.29
748.80	617.90
749.13	643.65
749.46	634.29
749.79	660.03
750.12	620.24
750.44	580.45
750.77	617.90
751.10	664.71
751.43	585.13
751.76	645.99
752.09	643.65
752.42	631.94
752.75	662.37
753.08	617.90
753.41	622.58
753.74	615.56
754.07	624.92
754.40	620.24
754.73	634.29
755.06	676.41
755.39	660.03
755.71	653.01
756.04	706.84
756.37	603.86
756.70	580.45
757.03	528.96
757.36	681.10
757.69	650.67
758.02	613.22
758.34	655.35
758.67	667.05
759.00	667.05
759.33	603.86
759.66	620.24
759.99	667.05
760.31	624.92
760.64	657.69
760.97	629.60
761.30	615.56
761.63	641.31
761.96	610.88
762.28	629.60
762.61	629.60
762.94	641.31
763.27	655.35
763.60	620.24
763.92	620.24
764.25	664.71
764.58	603.86
764.91	596.84
765.23	648.33
765.56	664.71
765.89	617.90
766.22	667.05
766.54	617.90
766.87	671.73
767.20	645.99
767.53	608.54
767.85	650.67
768.18	622.58
768.51	629.60
768.84	631.94
769.16	662.37
769.49	617.90
769.82	603.86
770.14	613.22
770.47	608.54
770.80	676.41
771.12	704.50
771.45	617.90
771.78	690.46
772.10	592.16
772.43	645.99
772.76	643.65
773.08	610.88
773.41	631.94
773.74	634.29
774.06	620.24
774.39	669.39
774.72	596.84
775.04	585.13
775.37	655.35
775.70	718.54
776.02	627.26
776.35	629.60
776.67	641.31
777.00	657.69
777.33	674.07
777.65	592.16
777.98	636.63
778.30	648.33
778.63	582.79
778.95	634.29
779.28	624.92
779.61	671.73
779.93	660.03
780.26	627.26
780.58	678.76
780.91	610.88
781.23	603.86
781.56	669.39
781.88	631.94
782.21	631.94
782.53	699.82
782.86	629.60
783.18	681.10
783.51	638.97
783.83	678.76
784.16	554.71
784.48	610.88
784.81	617.90
785.13	655.35
785.46	699.82
785.78	599.18
786.11	573.43
786.43	662.37
786.76	664.71
787.08	587.47
787.41	620.24
787.73	660.03
788.06	662.37
788.38	669.39
788.70	648.33
789.03	634.29
789.35	599.18
789.68	690.46
790.00	638.97
790.33	645.99
790.65	664.71
790.97	615.56
791.30	596.84
791.62	648.33
791.94	699.82
792.27	575.77
792.59	599.18
792.92	608.54
793.24	648.33
793.56	734.93
793.89	629.60
794.21	655.35
794.53	704.50
794.86	634.29
795.18	685.78
795.50	596.84
795.83	603.86
796.15	711.52
796.47	669.39
796.80	627.26
797.12	596.84
797.44	601.52
797.77	622.58
798.09	667.05
798.41	608.54
798.73	603.86
799.06	596.84
799.38	629.60
799.70	688.12
800.03	559.39
800.35	636.63
800.67	627.26
800.99	629.60
801.32	629.60
801.64	624.92
801.96	685.78
802.28	685.78
802.61	739.61
802.93	667.05
803.25	631.94
803.57	681.10
803.89	594.50
804.22	603.86
804.54	645.99
804.86	634.29
805.18	620.24
805.50	653.01
805.83	617.90
806.15	631.94
806.47	650.67
806.79	678.76
807.11	648.33
807.43	667.05
807.76	554.71
808.08	648.33
808.40	713.86
808.72	606.20
809.04	601.52
809.36	662.37
809.68	645.99
810.01	636.63
810.33	624.92
810.65	634.29
810.97	629.60
811.29	688.12
811.61	671.73
811.93	622.58
812.25	610.88
812.57	653.01
812.89	624.92
813.21	645.99
813.54	662.37
813.86	718.54
814.18	606.20
814.50	641.31
814.82	606.20
815.14	613.22
815.46	634.29
815.78	561.73
816.10	718.54
816.42	631.94
816.74	578.11
817.06	636.63
817.38	723.23
817.70	638.97
818.02	697.48
818.34	629.60
818.66	601.52
818.98	594.50
819.30	606.20
819.62	669.39
819.94	669.39
820.26	594.50
820.58	613.22
820.90	660.03
821.22	636.63
821.54	594.50
821.86	669.39
822.18	631.94
822.49	592.16
822.81	629.60
823.13	669.39
823.45	667.05
823.77	629.60
824.09	580.45
824.41	608.54
824.73	667.05
825.05	641.31
825.37	629.60
825.69	636.63
826.00	571.09
826.32	636.63
826.64	685.78
826.96	692.80
827.28	638.97
827.60	622.58
827.92	657.69
828.23	655.35
828.55	676.41
828.87	603.86
829.19	627.26
829.51	610.88
829.83	674.07
830.14	648.33
830.46	592.16
830.78	660.03
831.10	641.31
831.42	589.82
831.73	653.01
832.05	631.94
832.37	667.05
832.69	664.71
833.01	655.35
833.32	641.31
833.64	676.41
833.96	603.86
834.28	613.22
834.59	664.71
834.91	657.69
835.23	606.20
835.55	676.41
835.86	594.50
836.18	664.71
836.50	678.76
836.82	638.97
837.13	655.35
837.45	617.90
837.77	638.97
838.08	650.67
838.40	669.39
838.72	662.37
839.03	660.03
839.35	648.33
839.67	587.47
839.98	643.65
840.30	610.88
840.62	660.03
840.93	620.24
841.25	592.16
841.57	662.37
841.88	653.01
842.20	631.94
842.52	643.65
842.83	617.90
843.15	699.82
843.46	627.26
843.78	660.03
844.10	610.88
844.41	662.37
844.73	681.10
845.04	573.43
845.36	629.60
845.68	599.18
845.99	606.20
846.31	615.56
846.62	683.44
846.94	606.20
847.25	610.88
847.57	596.84
847.89	622.58
848.20	662.37
848.52	608.54
848.83	676.41
849.15	629.60
849.46	690.46
849.78	606.20
850.09	634.29
850.41	636.63
850.72	692.80
851.04	655.35
851.35	617.90
851.67	664.71
851.98	582.79
852.30	615.56
852.61	629.60
852.93	622.58
853.24	650.67
853.56	660.03
853.87	664.71
854.18	662.37
854.50	683.44
854.81	594.50
855.13	674.07
855.44	627.26
855.76	608.54
856.07	634.29
856.38	638.97
856.70	674.07
857.01	681.10
857.33	634.29
857.64	643.65
857.95	631.94
858.27	638.97
858.58	601.52
858.90	676.41
859.21	653.01
859.52	669.39
859.84	662.37
860.15	622.58
860.46	645.99
860.78	617.90
861.09	685.78
861.40	657.69
861.72	608.54
862.03	629.60
862.34	650.67
862.66	645.99
862.97	638.97
863.28	683.44
863.60	613.22
863.91	585.13
864.22	699.82
864.53	650.67
864.85	695.14
865.16	610.88
865.47	685.78
865.79	596.84
866.10	681.10
866.41	674.07
866.72	585.13
867.04	599.18
867.35	564.07
867.66	655.35
867.97	655.35
868.28	660.03
868.60	669.39
868.91	634.29
869.22	582.79
869.53	629.60
869.84	627.26
870.16	592.16
870.47	1343.47
870.78	674.07
871.09	732.59
871.40	629.60
871.72	599.18
872.03	678.76
872.34	667.05
872.65	627.26
872.96	636.63
873.27	594.50
873.58	655.35
873.90	662.37
874.21	641.31
874.52	617.90
874.83	638.97
875.14	655.35
875.45	681.10
875.76	620.24
876.07	617.90
876.39	599.18
876.70	599.18
877.01	655.35
877.32	636.63
877.63	676.41
877.94	631.94
878.25	664.71
878.56	617.90
878.87	585.13
879.18	645.99
879.49	653.01
879.80	653.01
880.11	634.29
880.42	624.92
880.73	608.54
881.04	610.88
881.35	645.99
881.66	580.45
881.97	627.26
882.28	638.97
882.59	636.63
882.90	676.41
883.21	690.46
883.52	638.97
883.83	638.97
884.14	634.29
884.45	608.54
884.76	641.31
885.07	636.63
885.38	664.71
885.69	627.26
886.00	648.33
886.31	594.50
886.62	568.75
886.93	610.88
887.24	643.65
887.55	557.05
887.86	617.90
888.16	674.07
888.47	655.35
888.78	645.99
889.09	638.97
889.40	650.67
889.71	690.46
890.02	676.41
890.33	688.12
890.63	692.80
890.94	627.26
891.25	690.46
891.56	648.33
891.87	653.01
892.18	643.65
892.49	629.60
892.79	720.88
893.10	657.69
893.41	599.18
893.72	573.43
894.03	655.35
894.33	592.16
894.64	585.13
894.95	599.18
895.26	641.31
895.57	606.20
895.87	676.41
896.18	653.01
896.49	610.88
896.80	627.26
897.10	585.13
897.41	655.35
897.72	540.66
898.03	643.65
898.33	660.03
898.64	685.78
898.95	723.23
899.26	667.05
899.56	627.26
899.87	702.16
900.18	596.84
900.48	627.26
900.79	667.05
901.10	592.16
901.40	603.86
901.71	622.58
902.02	648.33
902.33	620.24
902.63	566.41
902.94	610.88
903.24	585.13
903.55	617.90
903.86	606.20
904.16	664.71
904.47	631.94
904.78	645.99
905.08	631.94
905.39	634.29
905.70	676.41
906.00	608.54
906.31	671.73
906.61	664.71
906.92	613.22
907.23	638.97
907.53	610.88
907.84	667.05
908.14	550.03
908.45	617.90
908.75	596.84
909.06	660.03
909.37	629.60
909.67	669.39
909.98	641.31
910.28	631.94
910.59	594.50
910.89	617.90
911.20	592.16
911.50	573.43
911.81	606.20
912.11	645.99
912.42	627.26
912.72	613.22
913.03	650.67
913.33	643.65
913.64	657.69
913.94	643.65
914.25	671.73
914.55	592.16
914.86	641.31
915.16	669.39
915.46	606.20
915.77	617.90
916.07	624.92
916.38	683.44
916.68	681.10
916.99	720.88
917.29	669.39
917.59	648.33
917.90	629.60
918.20	613.22
918.51	645.99
918.81	620.24
919.11	568.75
919.42	624.92
919.72	617.90
920.03	606.20
920.33	592.16
920.63	610.88
920.94	610.88
921.24	620.24
921.54	617.90
921.85	631.94
922.15	615.56
922.45	667.05
922.76	624.92
923.06	601.52
923.36	709.18
923.67	648.33
923.97	643.65
924.27	634.29
924.58	601.52
924.88	678.76
925.18	645.99
925.48	653.01
925.79	634.29
926.09	629.60
926.39	606.20
926.69	709.18
927.00	681.10
927.30	645.99
927.60	601.52
927.90	620.24
928.21	688.12
928.51	599.18
928.81	643.65
929.11	622.58
929.42	624.92
929.72	643.65
930.02	641.31
930.32	645.99
930.62	685.78
930.93	645.99
931.23	657.69
931.53	631.94
931.83	653.01
932.13	648.33
932.43	617.90
932.74	671.73
933.04	669.39
933.34	578.11
933.64	566.41
933.94	585.13
934.24	634.29
934.54	620.24
934.84	638.97
935.15	629.60
935.45	643.65
935.75	662.37
936.05	629.60
936.35	617.90
936.65	624.92
936.95	608.54
937.25	568.75
937.55	681.10
937.85	645.99
938.15	655.35
938.45	624.92
938.75	650.67
939.06	631.94
939.36	610.88
939.66	702.16
939.96	629.60
940.26	664.71
940.56	610.88
940.86	617.90
941.16	636.63
941.46	655.35
941.76	587.47
942.06	650.67
942.36	702.16
942.66	610.88
942.96	634.29
943.26	596.84
943.56	688.12
943.86	629.60
944.15	582.79
944.45	547.69
944.75	655.35
945.05	681.10
945.35	671.73
945.65	657.69
945.95	669.39
946.25	695.14
946.55	603.86
946.85	641.31
947.15	624.92
947.45	662.37
947.74	629.60
948.04	662.37
948.34	615.56
948.64	599.18
948.94	580.45
949.24	667.05
949.54	631.94
949.84	631.94
950.13	624.92
950.43	585.13
950.73	624.92
951.03	645.99
951.33	655.35
951.63	638.97
951.92	617.90
952.22	648.33
952.52	641.31
952.82	620.24
953.12	727.91
953.41	615.56
953.71	620.24
954.01	629.60
954.31	655.35
954.61	620.24
954.90	592.16
955.20	617.90
955.50	580.45
955.80	594.50
956.09	638.97
956.39	631.94
956.69	620.24
956.98	641.31
957.28	575.77
957.58	603.86
957.88	683.44
958.17	629.60
958.47	613.22
958.77	660.03
959.06	606.20
959.36	643.65
959.66	685.78
959.95	627.26
960.25	582.79
960.55	589.82
960.84	596.84
961.14	634.29
961.44	617.90
961.73	573.43
962.03	615.56
962.33	655.35
962.62	660.03
962.92	718.54
963.21	695.14
963.51	645.99
963.81	627.26
964.10	550.03
964.40	610.88
964.69	660.03
964.99	676.41
965.29	664.71
965.58	676.41
965.88	631.94
966.17	638.97
966.47	615.56
966.76	653.01
967.06	669.39
967.36	578.11
967.65	599.18
967.95	720.88
968.24	723.23
968.54	709.18
968.83	606.20
969.13	662.37
969.42	634.29
969.72	638.97
970.01	617.90
970.31	606.20
970.60	561.73
970.90	713.86
971.19	627.26
971.48	657.69
971.78	631.94
972.07	690.46
972.37	622.58
972.66	650.67
972.96	645.99
973.25	617.90
973.55	617.90
973.84	610.88
974.13	655.35
974.43	664.71
974.72	645.99
975.02	617.90
975.31	683.44
975.60	727.91
975.90	594.50
976.19	629.60
976.49	638.97
976.78	660.03
977.07	718.54
977.37	624.92
977.66	641.31
977.95	589.82
978.25	641.31
978.54	660.03
978.83	634.29
979.13	681.10
979.42	655.35
979.71	650.67
980.01	638.97
980.30	676.41
980.59	650.67
980.88	615.56
981.18	606.20
981.47	720.88
981.76	695.14
982.06	596.84
982.35	638.97
982.64	629.60
982.93	662.37
983.23	617.90
983.52	622.58
983.81	594.50
984.10	566.41
984.40	589.82
984.69	631.94
984.98	641.31
985.27	631.94
985.56	627.26
985.86	667.05
986.15	678.76
986.44	599.18
986.73	606.20
987.02	638.97
987.31	648.33
987.61	629.60
987.90	585.13
988.19	655.35
988.48	645.99
988.77	564.07
989.06	681.10
989.36	685.78
989.65	622.58
989.94	638.97
990.23	627.26
990.52	648.33
990.81	557.05
991.10	695.14
991.39	653.01
991.68	648.33
991.97	620.24
992.27	638.97
992.56	676.41
992.85	603.86
993.14	622.58
993.43	704.50
993.72	617.90
994.01	624.92
994.30	664.71
994.59	634.29
994.88	653.01
995.17	624.92
995.46	631.94
995.75	629.60
996.04	657.69
996.33	674.07
996.62	643.65
996.91	676.41
997.20	648.33
997.49	624.92
997.78	645.99
998.07	610.88
998.36	711.52
998.65	617.90
998.94	716.20
999.23	655.35
999.52	624.92
999.81	638.97
1000.10	613.22
1000.39	648.33
1000.67	599.18
1000.96	631.94
1001.25	648.33
1001.54	650.67
1001.83	636.63
1002.12	608.54
1002.41	688.12
1002.70	716.20
1002.99	695.14
1003.27	699.82
1003.56	603.86
1003.85	662.37
1004.14	653.01
1004.43	744.29
1004.72	587.47
1005.01	617.90
1005.29	627.26
1005.58	629.60
1005.87	568.75
1006.16	613.22
1006.45	638.97
1006.73	643.65
1007.02	655.35
1007.31	636.63
1007.60	636.63
1007.89	636.63
1008.17	622.58
1008.46	610.88
1008.75	650.67
1009.04	648.33
1009.32	624.92
1009.61	589.82
1009.90	596.84
1010.19	592.16
1010.47	650.67
1010.76	657.69
1011.05	599.18
1011.34	617.90
1011.62	620.24
1011.91	685.78
1012.20	603.86
1012.48	561.73
1012.77	683.44
1013.06	589.82
1013.34	603.86
1013.63	580.45
1013.92	582.79
1014.20	704.50
1014.49	655.35
1014.78	669.39
1015.06	657.69
1015.35	648.33
1015.64	655.35
1015.92	692.80
1016.21	596.84
1016.49	629.60
1016.78	617.90
1017.07	638.97
1017.35	629.60
1017.64	580.45
1017.92	657.69
1018.21	660.03
1018.50	617.90
1018.78	650.67
1019.07	695.14
1019.35	674.07
1019.64	653.01
1019.92	653.01
1020.21	615.56
1020.50	645.99
1020.78	627.26
1021.07	645.99
1021.35	636.63
1021.64	655.35
1021.92	580.45
1022.21	610.88
1022.49	681.10
1022.78	629.60
1023.06	660.03
1023.35	660.03
1023.63	660.03
>>>>>End Processed Spectral Data<<<<<
